{
    "resourceType": "QuestionnaireResponse",
    "id": "questionnaireresponse-ID001",
    "meta": {
        "versionId": "1",
        "lastUpdated": "2025-11-20T22:30:00Z",
        "profile": [
            "http://hl7.org/fhir/uv/rtq/StructureDefinition/rtq-questionnaireresponse"
        ]
    },
    "identifier": {
        "system": "http://hl7.org/fhir/uv/brr/identifier/qa-request",
        "value": "ID001",
        "type": {
            "coding": [
                {
                    "system": "http://hl7.org/fhir/rtq/CodeSystem/rtq-identifier-type",
                    "code": "regulator",
                    "display": "Regulatory Authority Identifier"
                }
            ]
        }
    },
    "questionnaire": "Questionnaire/questionnaire-ID001",
    "status": "completed",
    "subject": {
        "reference": "MedicinalProductDefinition/MedicinalProduct-ExampleDrug",
        "display": "ExampleDrug 10 mg Tablets"
    },
    "author": {
        "type": "Organization",
        "reference": "#org-regulator",
        "display": "European Medicines Agency",
        "contained": [
            {
                "resourceType": "Organization",
                "id": "org-regulator",
                "identifier": [
                    {
                        "system": "https://ema.europa.eu/organization-id",
                        "value": "EMA"
                    }
                ],
                "name": "European Medicines Agency",
                "address": [
                    {
                        "text": "Domenico Scarlattilaan 6, 1083 HS Amsterdam, NL",
                        "line": [
                            "Domenico Scarlattilaan 6"
                        ],
                        "city": "Amsterdam",
                        "postalCode": "1083 HS",
                        "country": "NL"
                    }
                ],
                "contact": [
                    {
                        "telecom": [
                            {
                                "system": "email",
                                "value": "jane.doe@ema.example.eu"
                            }
                        ]
                    }
                ]
            }
        ]
    },
    "source": {
        "type": "Organization",
        "reference": "#org-mah",
        "display": "SynthPharma AG",
        "contained": [
            {
                "resourceType": "Organization",
                "id": "org-mah",
                "identifier": [
                    {
                        "system": "https://www.zefix.ch/en/SwissCompanyRegistry/UID",
                        "value": "CHE-123.456.789"
                    }
                ],
                "name": "SynthPharma AG",
                "address": [
                    {
                        "text": "Industriestrasse 12, 4056 Basel, CH",
                        "line": [
                            "Industriestrasse 12"
                        ],
                        "city": "Basel",
                        "postalCode": "4056",
                        "country": "CH"
                    }
                ],
                "contact": [
                    {
                        "telecom": [
                            {
                                "system": "email",
                                "value": "john.doe@synthpharma.ch"
                            }
                        ]
                    }
                ]
            }
        ]
    },
    "authored": "2025-06-25T14:00:00+02:00",
    "item": [
        {
            "linkId": "admin-1",
            "text": "Is the fee for the Type II variation fully paid and documented?",
            "extension": [
                {
                    "url": "http://hl7.org/fhir/StructureDefinition/rendering-xhtml",
                    "valueXhtml": "<div xmlns=\"http://www.w3.org/1999/xhtml\"><p>Is the fee for the Type II variation fully paid and documented?</p></div>"
                }
            ],
            "answer": [
                {
                    "valueString": "Yes, the fee was paid on June 25, 2025.",
                    "extension": [
                        {
                            "url": "http://hl7.org/fhir/StructureDefinition/rendering-xhtml",
                            "valueXhtml": "<div xmlns=\"http://www.w3.org/1999/xhtml\"><p>Yes, the fee was paid on <b>June 25, 2025</b>, with documentation included in the application form.</p></div>"
                        }
                    ]
                }
            ]
        },
        {
            "linkId": "labeling-1",
            "text": "Do the updated storage conditions (2–8°C for 36 months) require additional patient guidance?",
            "extension": [
                {
                    "url": "http://hl7.org/fhir/StructureDefinition/rendering-xhtml",
                    "valueXhtml": "<div xmlns=\"http://www.w3.org/1999/xhtml\"><p>Do the updated storage conditions (2–8°C for 36 months) require additional patient guidance?</p></div>"
                }
            ],
            "answer": [
                {
                    "valueString": "No additional guidance is needed.",
                    "extension": [
                        {
                            "url": "http://hl7.org/fhir/StructureDefinition/rendering-xhtml",
                            "valueXhtml": "<div xmlns=\"http://www.w3.org/1999/xhtml\"><p>No additional guidance is needed; the ePI clearly states storage at 2-8°C for 36 months.</p></div>"
                        }
                    ]
                }
            ]
        }
    ]
}